# value	voltage [V]
0	0.382270
1	0.389150
2	0.395600
3	0.402480
4	0.409360
5	0.416240
6	0.422260
7	0.430000
8	0.436450
9	0.443330
10	0.449780
11	0.456660
12	0.463110
13	0.469990
14	0.476440
15	0.483320
16	0.490200
17	0.497080
18	0.503960
19	0.510840
20	0.517290
21	0.524170
22	0.530620
23	0.537500
24	0.544380
25	0.551260
26	0.557710
27	0.564590
28	0.571040
29	0.577920
30	0.584370
31	0.591250
32	0.598130
33	0.604580
34	0.611460
35	0.618340
36	0.625220
37	0.631670
38	0.638550
39	0.645000
40	0.651880
41	0.658330
42	0.665210
43	0.672090
44	0.678540
45	0.685420
46	0.691870
47	0.698750
48	0.705630
49	0.712080
50	0.718960
51	0.725410
52	0.732720
53	0.739170
54	0.745620
55	0.752500
56	0.758950
57	0.765830
58	0.772710
59	0.779160
60	0.785610
61	0.792490
62	0.799370
63	0.805820
64	0.812270
65	0.819580
66	0.826030
67	0.832480
68	0.839790
69	0.846240
70	0.852690
71	0.859570
72	0.866020
73	0.873330
74	0.879780
75	0.886230
76	0.893110
77	0.899130
78	0.906010
79	0.912890
80	0.919770
81	0.926650
82	0.933100
83	0.939980
84	0.946860
85	0.953310
86	0.960190
87	0.966640
88	0.973520
89	0.979970
90	0.986850
91	0.993730
92	1.000180
93	1.007060
94	1.013940
95	1.020390
96	1.026840
97	1.033720
98	1.040600
99	1.047480
100	1.053500
101	1.060380
102	1.067260
103	1.074140
104	1.081020
105	1.087470
106	1.093920
107	1.101230
108	1.107680
109	1.114130
110	1.120580
111	1.127890
112	1.134340
113	1.141220
114	1.147670
115	1.154550
116	1.161430
117	1.167880
118	1.174760
119	1.181640
120	1.187660
121	1.194540
122	1.201420
123	1.207870
124	1.214750
125	1.221630
126	1.228080
127	1.234960
128	1.241410
129	1.248290
130	1.254740
131	1.261190
132	1.268070
133	1.274950
134	1.281830
135	1.288280
136	1.294730
137	1.302040
138	1.308060
139	1.314940
140	1.321820
141	1.328270
142	1.335150
143	1.341600
144	1.348480
145	1.354500
146	1.361810
147	1.368260
148	1.374710
149	1.381590
150	1.388040
151	1.394920
152	1.401370
153	1.407820
154	1.414700
155	1.421580
156	1.427600
157	1.434480
158	1.440930
159	1.448240
160	1.454690
161	1.461570
162	1.468020
163	1.474470
164	1.480920
165	1.487370
166	1.494680
167	1.501130
168	1.507580
169	1.514030
170	1.520480
171	1.527360
172	1.533810
173	1.540260
174	1.547140
175	1.553590
176	1.559610
177	1.566060
178	1.572940
179	1.578960
180	1.585410
181	1.591430
182	1.597450
183	1.603470
184	1.609490
185	1.615080
186	1.621100
187	1.626260
188	1.631850
189	1.637010
190	1.642170
191	1.647330
192	1.652490
193	1.657220
194	1.661950
195	1.666250
196	1.670550
197	1.674850
198	1.678720
199	1.682590
200	1.686030
201	1.689470
202	1.692910
203	1.695920
204	1.698500
205	1.701080
206	1.703660
207	1.705380
208	1.707530
209	1.709250
210	1.710540
211	1.711830
212	1.712260
213	1.712690
214	1.712690
215	1.713120
216	1.713120
217	1.713550
218	1.713550
219	1.713550
220	1.713980
221	1.713550
222	1.713980
223	1.713980
224	1.713980
225	1.713980
226	1.713550
227	1.713980
228	1.713980
229	1.713980
230	1.713980
231	1.713980
232	1.713980
233	1.713980
234	1.713980
235	1.713980
236	1.713980
237	1.713980
238	1.713980
239	1.713980
240	1.713980
241	1.713980
242	1.713980
243	1.713980
244	1.713980
245	1.713980
246	1.713980
247	1.713980
248	1.713980
249	1.713980
250	1.713980
251	1.713980
252	1.713980
253	1.713980
254	1.713980
255	1.713980
